reward_today,future_reward,delay,thisN,thisTrialN,thisRepN,key_resp.keys,key_resp.rt,key_resp.duration,trials.thisRepN,trials.thisTrialN,trials.thisN,trials.thisIndex,thisRow.t,notes,trial.started,fixation.started,text.started,key_resp.started,fixation.stopped,trial.stopped,trials.key_resp.keys,trials.key_resp.rt,trials.key_resp.duration,participant,session,date,expName,expVersion,psychopyVersion,frameRate,expStart,
45,71,73,0,0,0,t,1.3168061000760645,None,0,0,0,19,0.13449120009317994,,0.13230640022084117,0.13449120009317994,1.0132536001037806,1.0132536001037806,1.1469071002211422,2.3402839000336826,t,1.3168061000760645,None,904091,001,2025-11-03_08h34.09.768,Tutorial 6,,2025.1.1,60.14527489689131,2025-11-03 08h34.17.161786 +0530,
132,203,236,1,1,0,l,0.45071829995140433,None,0,1,1,64,2.351438700221479,,2.349404400214553,2.351438700221479,3.3463632001075894,3.3463632001075894,3.3630924001336098,3.8139347000978887,l,0.45071829995140433,None,904091,001,2025-11-03_08h34.09.768,Tutorial 6,,2025.1.1,60.14527489689131,2025-11-03 08h34.17.161786 +0530,
163,228,296,2,2,0,t,0.30922270007431507,None,0,2,2,80,3.8297636001370847,,3.823306000092998,3.8297636001370847,4.8128479002043605,4.8128479002043605,4.82956080022268,5.130251000169665,t,0.30922270007431507,None,904091,001,2025-11-03_08h34.09.768,Tutorial 6,,2025.1.1,60.14527489689131,2025-11-03 08h34.17.161786 +0530,
198,322,365,3,3,0,t,0.19843440013937652,None,0,3,3,98,5.145980200031772,,5.137675900012255,5.145980200031772,6.129236000124365,6.129236000124365,6.146104200044647,6.329795000143349,t,0.19843440013937652,None,904091,001,2025-11-03_08h34.09.768,Tutorial 6,,2025.1.1,60.14527489689131,2025-11-03 08h34.17.161786 +0530,
12,17,12,4,4,0,t,0.2673867999110371,None,0,4,4,2,6.346035100053996,,6.335466400021687,6.346035100053996,7.329200200038031,7.329200200038031,7.345911600161344,7.613098400179297,t,0.2673867999110371,None,904091,001,2025-11-03_08h34.09.768,Tutorial 6,,2025.1.1,60.14527489689131,2025-11-03 08h34.17.161786 +0530,
31,37,46,5,5,0,l,0.22344149998389184,None,0,5,5,12,7.629142000107095,,7.6192650001030415,7.629142000107095,8.612372900126502,8.612372900126502,8.628795900149271,8.846359700197354,l,0.22344149998389184,None,904091,001,2025-11-03_08h34.09.768,Tutorial 6,,2025.1.1,60.14527489689131,2025-11-03 08h34.17.161786 +0530,
179,227,326,6,6,0,t,0.23525930009782314,None,0,6,6,88,8.86195440008305,,8.852757100015879,8.86195440008305,9.845246900105849,9.845246900105849,9.861878800205886,10.096286300104111,t,0.23525930009782314,None,904091,001,2025-11-03_08h34.09.768,Tutorial 6,,2025.1.1,60.14527489689131,2025-11-03 08h34.17.161786 +0530,
35,56,55,7,7,0,l,0.18895250000059605,None,0,7,7,14,10.112128800014034,,10.102140400093049,10.112128800014034,11.095265800133348,11.095265800133348,11.111985200084746,11.295424100011587,l,0.18895250000059605,None,904091,001,2025-11-03_08h34.09.768,Tutorial 6,,2025.1.1,60.14527489689131,2025-11-03 08h34.17.161786 +0530,
24,37,31,8,8,0,l,0.2334484001621604,None,0,8,8,8,11.311480200150982,,11.29990700003691,11.311480200150982,12.295097100082785,12.295097100082785,12.311825200216845,12.545733400154859,l,0.2334484001621604,None,904091,001,2025-11-03_08h34.09.768,Tutorial 6,,2025.1.1,60.14527489689131,2025-11-03 08h34.17.161786 +0530,
128,202,228,9,9,0,t,0.11174340010620654,None,0,9,9,62,12.56164600001648,,12.551827100105584,12.56164600001648,13.56157990009524,13.56157990009524,13.56157990009524,13.67863480001688,t,0.11174340010620654,None,904091,001,2025-11-03_08h34.09.768,Tutorial 6,,2025.1.1,60.14527489689131,2025-11-03 08h34.17.161786 +0530,
169,270,309,10,10,0,t,0.27455540001392365,None,0,10,10,83,13.694856600137427,,13.684550300007686,13.694856600137427,14.677892200183123,14.677892200183123,14.694763600127771,14.962099800119177,t,0.27455540001392365,None,904091,001,2025-11-03_08h34.09.768,Tutorial 6,,2025.1.1,60.14527489689131,2025-11-03 08h34.17.161786 +0530,
99,136,175,11,11,0,l,0.24040629994124174,None,0,11,11,47,14.977880700025707,,14.968355500139296,14.977880700025707,15.961447700159624,15.961447700159624,15.977932000067085,16.211231500143185,l,0.24040629994124174,None,904091,001,2025-11-03_08h34.09.768,Tutorial 6,,2025.1.1,60.14527489689131,2025-11-03 08h34.17.161786 +0530,
47,74,79,12,12,0,t,0.27259649988263845,None,0,12,12,20,16.227774400031194,,16.215511300135404,16.227774400031194,17.210540700005367,17.210540700005367,17.22770470008254,17.494822500040755,t,0.27259649988263845,None,904091,001,2025-11-03_08h34.09.768,Tutorial 6,,2025.1.1,60.14527489689131,2025-11-03 08h34.17.161786 +0530,
130,180,231,13,13,0,t,0.26236079982481897,None,0,13,13,63,17.510965600144118,,17.50053400010802,17.510965600144118,18.494071600027382,18.494071600027382,18.510778200114146,18.76109250006266,t,0.26236079982481897,None,904091,001,2025-11-03_08h34.09.768,Tutorial 6,,2025.1.1,60.14527489689131,2025-11-03 08h34.17.161786 +0530,
70,112,118,14,14,0,l,0.20082789985463023,None,0,14,14,32,18.777154700132087,,18.76686990004964,18.777154700132087,19.760547400219366,19.760547400219366,19.776998500106856,19.977406300138682,l,0.20082789985463023,None,904091,001,2025-11-03_08h34.09.768,Tutorial 6,,2025.1.1,60.14527489689131,2025-11-03 08h34.17.161786 +0530,
171,275,313,15,15,0,t,0.19454830000177026,None,0,15,15,84,19.99371670000255,,19.979845700087026,19.99371670000255,20.976932300021872,20.976932300021872,20.99369030003436,21.177906000055373,t,0.19454830000177026,None,904091,001,2025-11-03_08h34.09.768,Tutorial 6,,2025.1.1,60.14527489689131,2025-11-03 08h34.17.161786 +0530,
91,110,163,16,16,0,l,0.5299206001218408,None,0,16,16,43,21.193411100190133,,21.186491000000387,21.193411100190133,22.19349840003997,22.19349840003997,22.19349840003997,22.72756680008024,l,0.5299206001218408,None,904091,001,2025-11-03_08h34.09.768,Tutorial 6,,2025.1.1,60.14527489689131,2025-11-03 08h34.17.161786 +0530,
60,73,100,17,17,0,l,0.17416319996118546,None,0,17,17,27,22.743322800146416,,22.733327200170606,22.743322800146416,23.743167100008577,23.743167100008577,23.743167100008577,23.927319600014016,l,0.17416319996118546,None,904091,001,2025-11-03_08h34.09.768,Tutorial 6,,2025.1.1,60.14527489689131,2025-11-03 08h34.17.161786 +0530,
66,100,113,18,18,0,l,0.18487010011449456,None,0,18,18,30,23.94325670017861,,23.93396300007589,23.94325670017861,24.926305300090462,24.926305300090462,24.943050200119615,25.127540400018916,l,0.18487010011449456,None,904091,001,2025-11-03_08h34.09.768,Tutorial 6,,2025.1.1,60.14527489689131,2025-11-03 08h34.17.161786 +0530,
192,241,353,19,19,0,t,0.35355330002494156,None,0,19,19,95,25.14303980022669,,25.133900600019842,25.14303980022669,26.142829100135714,26.142829100135714,26.142829100135714,26.509331100154668,t,0.35355330002494156,None,904091,001,2025-11-03_08h34.09.768,Tutorial 6,,2025.1.1,60.14527489689131,2025-11-03 08h34.17.161786 +0530,
138,166,248,20,20,0,t,0.19302390003576875,None,0,20,20,67,26.525615700054914,,26.51356920017861,26.525615700054914,27.509096699999645,27.509096699999645,27.52557160006836,27.709514800226316,t,0.19302390003576875,None,904091,001,2025-11-03_08h34.09.768,Tutorial 6,,2025.1.1,60.14527489689131,2025-11-03 08h34.17.161786 +0530,
181,206,332,21,21,0,t,0.19702950003556907,None,0,21,21,89,27.725657800212502,,27.713020300026983,27.725657800212502,28.70904430001974,28.70904430001974,28.72558830003254,28.909957700176165,t,0.19702950003556907,None,904091,001,2025-11-03_08h34.09.768,Tutorial 6,,2025.1.1,60.14527489689131,2025-11-03 08h34.17.161786 +0530,
88,119,155,22,22,0,l,0.2201505999546498,None,0,22,22,41,28.925857400055975,,28.91651160013862,28.925857400055975,29.92536100000143,29.92536100000143,29.92536100000143,30.158952500205487,l,0.2201505999546498,None,904091,001,2025-11-03_08h34.09.768,Tutorial 6,,2025.1.1,60.14527489689131,2025-11-03 08h34.17.161786 +0530,
109,136,197,23,23,0,t,0.13070400012657046,None,0,23,23,52,30.175381800159812,,30.161658600205556,30.175381800159812,31.15894990018569,31.15894990018569,31.175595400156453,31.29262280021794,t,0.13070400012657046,None,904091,001,2025-11-03_08h34.09.768,Tutorial 6,,2025.1.1,60.14527489689131,2025-11-03 08h34.17.161786 +0530,
29,46,43,24,24,0,l,0.15719150006771088,None,0,24,24,11,31.308667100034654,,31.30083980015479,31.308667100034654,32.29165040003136,32.29165040003136,32.30843900004402,32.45935370004736,l,0.15719150006771088,None,904091,001,2025-11-03_08h34.09.768,Tutorial 6,,2025.1.1,60.14527489689131,2025-11-03 08h34.17.161786 +0530,
105,143,187,25,25,0,l,0.08602930000051856,None,0,25,25,50,32.47527430020273,,32.4651651000604,32.47527430020273,33.474919400177896,33.474919400177896,33.474919400177896,33.574965400155634,l,0.08602930000051856,None,904091,001,2025-11-03_08h34.09.768,Tutorial 6,,2025.1.1,60.14527489689131,2025-11-03 08h34.17.161786 +0530,
194,234,355,26,26,0,t,0.306729800067842,None,0,26,26,96,33.59156800014898,,33.57961350004189,33.59156800014898,34.57473500003107,34.57473500003107,34.591568200150505,34.89174410002306,t,0.306729800067842,None,904091,001,2025-11-03_08h34.09.768,Tutorial 6,,2025.1.1,60.14527489689131,2025-11-03 08h34.17.161786 +0530,
122,194,219,27,27,0,t,0.4572011998388916,None,0,27,27,59,34.908028500154614,,34.895298100076616,34.908028500154614,35.891450700117275,35.891450700117275,35.90798520017415,36.35896750004031,t,0.4572011998388916,None,904091,001,2025-11-03_08h34.09.768,Tutorial 6,,2025.1.1,60.14527489689131,2025-11-03 08h34.17.161786 +0530,
190,299,345,28,28,0,l,0.4663962998893112,None,0,28,28,94,36.37461740011349,,36.36649430007674,36.37461740011349,37.37455620011315,37.37455620011315,37.37455620011315,37.84196260012686,l,0.4663962998893112,None,904091,001,2025-11-03_08h34.09.768,Tutorial 6,,2025.1.1,60.14527489689131,2025-11-03 08h34.17.161786 +0530,
142,194,259,29,29,0,t,0.2783037000335753,None,0,29,29,69,37.85769890015945,,37.84840670018457,37.85769890015945,38.857221300015226,38.857221300015226,38.857221300015226,39.14059660001658,t,0.2783037000335753,None,904091,001,2025-11-03_08h34.09.768,Tutorial 6,,2025.1.1,60.14527489689131,2025-11-03 08h34.17.161786 +0530,
126,155,225,30,30,0,t,0.3113724000286311,None,0,30,30,61,39.15718880016357,,39.14470830000937,39.15718880016357,40.14050910016522,40.14050910016522,40.15708900010213,40.458282500039786,t,0.3113724000286311,None,904091,001,2025-11-03_08h34.09.768,Tutorial 6,,2025.1.1,60.14527489689131,2025-11-03 08h34.17.161786 +0530,
161,207,290,31,31,0,l,0.2918622998986393,None,0,31,31,79,40.47405480011366,,40.464835999999195,40.47405480011366,41.47358930017799,41.47358930017799,41.47358930017799,41.774513400159776,l,0.2918622998986393,None,904091,001,2025-11-03_08h34.09.768,Tutorial 6,,2025.1.1,60.14527489689131,2025-11-03 08h34.17.161786 +0530,
43,67,67,32,32,0,t,0.2747309000696987,None,0,32,32,18,41.79028880014084,,41.78111790004186,41.79028880014084,42.79021400003694,42.79021400003694,42.79021400003694,43.0743952000048,t,0.2747309000696987,None,904091,001,2025-11-03_08h34.09.768,Tutorial 6,,2025.1.1,60.14527489689131,2025-11-03 08h34.17.161786 +0530,
41,66,67,33,33,0,l,0.3166990999598056,None,0,33,33,17,43.090183100197464,,43.08028140012175,43.090183100197464,44.07386380014941,44.07386380014941,44.09012270020321,44.407591400202364,l,0.3166990999598056,None,904091,001,2025-11-03_08h34.09.768,Tutorial 6,,2025.1.1,60.14527489689131,2025-11-03 08h34.17.161786 +0530,
22,31,32,34,34,0,t,0.24245689995586872,None,0,34,34,7,44.423294300213456,,44.41434060013853,44.423294300213456,45.423300800146535,45.423300800146535,45.423300800146535,45.67405080003664,t,0.24245689995586872,None,904091,001,2025-11-03_08h34.09.768,Tutorial 6,,2025.1.1,60.14527489689131,2025-11-03 08h34.17.161786 +0530,
136,176,243,35,35,0,l,0.2515755998902023,None,0,35,35,66,45.689750500023365,,45.68071940005757,45.689750500023365,46.68937510019168,46.68937510019168,46.68937510019168,46.95687710004859,l,0.2515755998902023,None,904091,001,2025-11-03_08h34.09.768,Tutorial 6,,2025.1.1,60.14527489689131,2025-11-03 08h34.17.161786 +0530,
14,20,17,36,36,0,t,0.2386125000193715,None,0,36,36,3,46.97286700014956,,46.963994400110096,46.97286700014956,47.97241510008462,47.97241510008462,47.97241510008462,48.2234529000707,t,0.2386125000193715,None,904091,001,2025-11-03_08h34.09.768,Tutorial 6,,2025.1.1,60.14527489689131,2025-11-03 08h34.17.161786 +0530,
148,165,267,37,37,0,l,0.1732773999683559,None,0,37,37,72,48.239418800221756,,48.2295749001205,48.239418800221756,49.222696900134906,49.222696900134906,49.2392996000126,49.406559800030664,l,0.1732773999683559,None,904091,001,2025-11-03_08h34.09.768,Tutorial 6,,2025.1.1,60.14527489689131,2025-11-03 08h34.17.161786 +0530,
115,140,208,38,38,0,l,0.11793479998596013,None,0,38,38,55,49.42252570018172,,49.41330590005964,49.42252570018172,50.40560520021245,50.40560520021245,50.4222541002091,50.539905900135636,l,0.11793479998596013,None,904091,001,2025-11-03_08h34.09.768,Tutorial 6,,2025.1.1,60.14527489689131,2025-11-03 08h34.17.161786 +0530,
8,14,7,39,39,0,t,0.16311329999007285,None,0,39,39,0,50.55575410020538,,50.54655610001646,50.55575410020538,51.55570390005596,51.55570390005596,51.55570390005596,51.722792900167406,t,0.16311329999007285,None,904091,001,2025-11-03_08h34.09.768,Tutorial 6,,2025.1.1,60.14527489689131,2025-11-03 08h34.17.161786 +0530,
58,78,99,40,40,0,l,0.39240420004352927,None,0,40,40,26,51.7387550000567,,51.72932030004449,51.7387550000567,52.72203540010378,52.72203540010378,52.73874250007793,53.122905700001866,l,0.39240420004352927,None,904091,001,2025-11-03_08h34.09.768,Tutorial 6,,2025.1.1,60.14527489689131,2025-11-03 08h34.17.161786 +0530,
175,243,318,41,41,0,t,0.14593689981848001,None,0,41,41,86,53.138163400115445,,53.12850570003502,53.138163400115445,54.13857780001126,54.13857780001126,54.13857780001126,54.288940200116485,t,0.14593689981848001,None,904091,001,2025-11-03_08h34.09.768,Tutorial 6,,2025.1.1,60.14527489689131,2025-11-03 08h34.17.161786 +0530,
117,187,206,42,42,0,t,0.31495120003819466,None,0,42,42,56,54.30487890006043,,54.2988698000554,54.30487890006043,55.288251700112596,55.288251700112596,55.30513170012273,55.60549150011502,t,0.31495120003819466,None,904091,001,2025-11-03_08h34.09.768,Tutorial 6,,2025.1.1,60.14527489689131,2025-11-03 08h34.17.161786 +0530,
184,251,334,43,43,0,l,0.2177155998069793,None,0,43,43,91,55.62114719999954,,55.61176410014741,55.62114719999954,56.60461650020443,56.60461650020443,56.620960200205445,56.838870900217444,l,0.2177155998069793,None,904091,001,2025-11-03_08h34.09.768,Tutorial 6,,2025.1.1,60.14527489689131,2025-11-03 08h34.17.161786 +0530,
183,259,331,44,44,0,t,0.38574240007437766,None,0,44,44,90,56.85476510017179,,56.84571440005675,56.85476510017179,57.83779800008051,57.83779800008051,57.854640500154346,58.23822270007804,t,0.38574240007437766,None,904091,001,2025-11-03_08h34.09.768,Tutorial 6,,2025.1.1,60.14527489689131,2025-11-03 08h34.17.161786 +0530,
93,109,163,45,45,0,t,1.1241729999892414,None,0,45,45,44,58.25460930005647,,58.24411930004135,58.25460930005647,59.237646100111306,59.237646100111306,59.254213500069454,60.371717100031674,t,1.1241729999892414,None,904091,001,2025-11-03_08h34.09.768,Tutorial 6,,2025.1.1,60.14527489689131,2025-11-03 08h34.17.161786 +0530,
18,28,23,46,46,0,l,0.16890709986910224,None,0,46,46,5,60.38708130014129,,60.37881080014631,60.38708130014129,61.37078830017708,61.37078830017708,61.387395300203934,61.554700600216165,l,0.16890709986910224,None,904091,001,2025-11-03_08h34.09.768,Tutorial 6,,2025.1.1,60.14527489689131,2025-11-03 08h34.17.161786 +0530,
33,58,52,47,47,0,t,0.1905672000721097,None,0,47,47,13,61.57053310004994,,61.56105890008621,61.57053310004994,62.553773700026795,62.553773700026795,62.57049800013192,62.754083200125024,t,0.1905672000721097,None,904091,001,2025-11-03_08h34.09.768,Tutorial 6,,2025.1.1,60.14527489689131,2025-11-03 08h34.17.161786 +0530,
157,202,282,48,48,0,t,0.2509387000463903,None,0,48,48,77,62.77019720012322,,62.759105700068176,62.77019720012322,63.7535125000868,63.7535125000868,63.77052820008248,64.02119890018366,t,0.2509387000463903,None,904091,001,2025-11-03_08h34.09.768,Tutorial 6,,2025.1.1,60.14527489689131,2025-11-03 08h34.17.161786 +0530,
144,219,259,49,49,0,l,1.3153472000267357,None,0,49,49,70,64.03693150007166,,64.02750510000624,64.03693150007166,65.03669290011749,65.03669290011749,65.03669290011749,66.3536807000637,l,1.3153472000267357,None,904091,001,2025-11-03_08h34.09.768,Tutorial 6,,2025.1.1,60.14527489689131,2025-11-03 08h34.17.161786 +0530,
53,64,88,50,50,0,t,0.15729429991915822,None,0,50,50,23,66.36994800018147,,66.36007750011049,66.36994800018147,67.35321440012194,67.35321440012194,67.36986390012316,67.52010880014859,t,0.15729429991915822,None,904091,001,2025-11-03_08h34.09.768,Tutorial 6,,2025.1.1,60.14527489689131,2025-11-03 08h34.17.161786 +0530,
62,80,108,51,51,0,l,0.599467899883166,None,0,51,51,28,67.5363410001155,,67.52592580020428,67.5363410001155,68.51956930011511,68.51956930011511,68.53625470004044,69.11979560018517,l,0.599467899883166,None,904091,001,2025-11-03_08h34.09.768,Tutorial 6,,2025.1.1,60.14527489689131,2025-11-03 08h34.17.161786 +0530,
107,164,189,52,52,0,t,0.2906446000561118,None,0,52,52,51,69.13614060007967,,69.12647520005703,69.13614060007967,70.11919100000523,70.11919100000523,70.13601810019463,70.41995360003784,t,0.2906446000561118,None,904091,001,2025-11-03_08h34.09.768,Tutorial 6,,2025.1.1,60.14527489689131,2025-11-03 08h34.17.161786 +0530,
140,174,252,53,53,0,l,0.08335010008886456,None,0,53,53,68,70.43590120016597,,70.42591210012324,70.43590120016597,71.41921000019647,71.41921000019647,71.43565320014022,71.5035500000231,l,0.08335010008886456,None,904091,001,2025-11-03_08h34.09.768,Tutorial 6,,2025.1.1,60.14527489689131,2025-11-03 08h34.17.161786 +0530,
55,88,92,54,54,0,l,0.09842829988338053,None,0,54,54,24,71.51916230004281,,71.51057600020431,71.51916230004281,72.5191075000912,72.5191075000912,72.5191075000912,72.6194002002012,l,0.09842829988338053,None,904091,001,2025-11-03_08h34.09.768,Tutorial 6,,2025.1.1,60.14527489689131,2025-11-03 08h34.17.161786 +0530,
51,69,82,55,55,0,t,0.09476240002550185,None,0,55,55,22,72.63546850020066,,72.6249936001841,72.63546850020066,73.6188835001085,73.6188835001085,73.63541660015471,73.7192300001625,t,0.09476240002550185,None,904091,001,2025-11-03_08h34.09.768,Tutorial 6,,2025.1.1,60.14527489689131,2025-11-03 08h34.17.161786 +0530,
78,118,133,56,56,0,l,0.08869450003840029,None,0,56,56,36,73.73546320013702,,73.72609400004148,73.73546320013702,74.71870700013824,74.71870700013824,74.73503229999915,74.81937010004185,l,0.08869450003840029,None,904091,001,2025-11-03_08h34.09.768,Tutorial 6,,2025.1.1,60.14527489689131,2025-11-03 08h34.17.161786 +0530,
84,117,149,57,57,0,l,0.1728757000528276,None,0,57,57,39,74.83529740013182,,74.82551390002482,74.83529740013182,75.81849680002779,75.81849680002779,75.83516480005346,76.00226350012235,l,0.1728757000528276,None,904091,001,2025-11-03_08h34.09.768,Tutorial 6,,2025.1.1,60.14527489689131,2025-11-03 08h34.17.161786 +0530,
82,125,142,58,58,0,l,0.1495197000913322,None,0,58,58,38,76.01854340010323,,76.0085328000132,76.01854340010323,77.00170280016027,77.00170280016027,77.01838110014796,77.16886249999516,l,0.1495197000913322,None,904091,001,2025-11-03_08h34.09.768,Tutorial 6,,2025.1.1,60.14527489689131,2025-11-03 08h34.17.161786 +0530,
152,202,277,59,59,0,t,0.039164300076663494,None,0,59,59,74,77.18457320006564,,77.17565500014462,77.18457320006564,78.1844986001961,78.1844986001961,78.1844986001961,78.23533970001154,t,0.039164300076663494,None,904091,001,2025-11-03_08h34.09.768,Tutorial 6,,2025.1.1,60.14527489689131,2025-11-03 08h34.17.161786 +0530,
146,227,266,60,60,0,t,0.24877330008894205,None,0,60,60,71,78.25108560011722,,78.24107380001806,78.25108560011722,79.25098880007863,79.25098880007863,79.25098880007863,79.50161600019783,t,0.24877330008894205,None,904091,001,2025-11-03_08h34.09.768,Tutorial 6,,2025.1.1,60.14527489689131,2025-11-03 08h34.17.161786 +0530,
173,214,312,61,61,0,t,0.22293490008451045,None,0,61,61,85,79.51761320000514,,79.50693930010311,79.51761320000514,80.50107280001976,80.50107280001976,80.51766940020025,80.7347931000404,t,0.22293490008451045,None,904091,001,2025-11-03_08h34.09.768,Tutorial 6,,2025.1.1,60.14527489689131,2025-11-03 08h34.17.161786 +0530,
97,125,175,62,62,0,l,0.1437109000980854,None,0,62,62,46,80.75086930021644,,80.74097460019402,80.75086930021644,81.73386060004123,81.73386060004123,81.75079350010492,81.8847649001982,l,0.1437109000980854,None,904091,001,2025-11-03_08h34.09.768,Tutorial 6,,2025.1.1,60.14527489689131,2025-11-03 08h34.17.161786 +0530,
89,101,160,63,63,0,t,0.06977379997260869,None,0,63,63,42,81.90083300019614,,81.8904281000141,81.90083300019614,82.90062790014781,82.90062790014781,82.90062790014781,82.98480710014701,t,0.06977379997260869,None,904091,001,2025-11-03_08h34.09.768,Tutorial 6,,2025.1.1,60.14527489689131,2025-11-03 08h34.17.161786 +0530,
165,241,298,64,64,0,l,0.07393189985305071,None,0,64,64,81,83.00060410005972,,82.99203190021217,83.00060410005972,84.00005200016312,84.00005200016312,84.00005200016312,84.08450630004518,l,0.07393189985305071,None,904091,001,2025-11-03_08h34.09.768,Tutorial 6,,2025.1.1,60.14527489689131,2025-11-03 08h34.17.161786 +0530,
113,143,198,65,65,0,l,0.20328859984874725,None,0,65,65,54,84.10041370010003,,84.09087000018917,84.10041370010003,85.10013290005736,85.10013290005736,85.10013290005736,85.31794350012206,l,0.20328859984874725,None,904091,001,2025-11-03_08h34.09.768,Tutorial 6,,2025.1.1,60.14527489689131,2025-11-03 08h34.17.161786 +0530,
16,28,17,66,66,0,l,0.23564299987629056,None,0,66,66,4,85.33341410011053,,85.32450129999779,85.33341410011053,86.33364800014533,86.33364800014533,86.33364800014533,86.58421200001612,l,0.23564299987629056,None,904091,001,2025-11-03_08h34.09.768,Tutorial 6,,2025.1.1,60.14527489689131,2025-11-03 08h34.17.161786 +0530,
25,41,35,67,67,0,l,0.06871779984794557,None,0,67,67,9,86.60008570016362,,86.58987490017898,86.60008570016362,87.58331260015257,87.58331260015257,87.59944370016456,87.6672948000487,l,0.06871779984794557,None,904091,001,2025-11-03_08h34.09.768,Tutorial 6,,2025.1.1,60.14527489689131,2025-11-03 08h34.17.161786 +0530,
80,117,139,68,68,0,t,0.7832428000401706,None,0,68,68,37,87.68291590013541,,87.67453410010785,87.68291590013541,88.68312460021116,88.68312460021116,88.68312460021116,89.46751950006,t,0.7832428000401706,None,904091,001,2025-11-03_08h34.09.768,Tutorial 6,,2025.1.1,60.14527489689131,2025-11-03 08h34.17.161786 +0530,
159,257,289,69,69,0,t,0.8834587000310421,None,0,69,69,78,89.48263320000842,,89.47415310004726,89.48263320000842,90.48251830018125,90.48251830018125,90.48251830018125,91.38309490005486,t,0.8834587000310421,None,904091,001,2025-11-03_08h34.09.768,Tutorial 6,,2025.1.1,60.14527489689131,2025-11-03 08h34.17.161786 +0530,
39,49,64,70,70,0,t,0.7053692999761552,None,0,70,70,16,91.3990784001071,,91.38985250005499,91.3990784001071,92.39922270015813,92.39922270015813,92.39922270015813,93.11659640003927,t,0.7053692999761552,None,904091,001,2025-11-03_08h34.09.768,Tutorial 6,,2025.1.1,60.14527489689131,2025-11-03 08h34.17.161786 +0530,
86,122,152,71,71,0,l,0.19637120002880692,None,0,71,71,40,93.1320009001065,,93.12343860021792,93.1320009001065,94.13207790022716,94.13207790022716,94.13207790022716,94.33290520007722,l,0.19637120002880692,None,904091,001,2025-11-03_08h34.09.768,Tutorial 6,,2025.1.1,60.14527489689131,2025-11-03 08h34.17.161786 +0530,
153,192,277,72,72,0,l,0.3418346999678761,None,0,72,72,75,94.34891690011136,,94.33973230002448,94.34891690011136,95.33205070020631,95.33205070020631,95.34861470013857,95.6821708001662,l,0.3418346999678761,None,904091,001,2025-11-03_08h34.09.768,Tutorial 6,,2025.1.1,60.14527489689131,2025-11-03 08h34.17.161786 +0530,
68,98,114,73,73,0,t,0.20109799993224442,None,0,73,73,31,95.69866920006461,,95.68742280011065,95.69866920006461,96.68181660003029,96.68181660003029,96.69846890005283,96.89937900006771,t,0.20109799993224442,None,904091,001,2025-11-03_08h34.09.768,Tutorial 6,,2025.1.1,60.14527489689131,2025-11-03 08h34.17.161786 +0530,
49,61,82,74,74,0,t,0.09804800013080239,None,0,74,74,21,96.91518650017679,,96.90645580017008,96.91518650017679,97.9150749000255,97.9150749000255,97.9150749000255,98.0156041001901,t,0.09804800013080239,None,904091,001,2025-11-03_08h34.09.768,Tutorial 6,,2025.1.1,60.14527489689131,2025-11-03 08h34.17.161786 +0530,
76,113,134,75,75,0,t,0.11083720019087195,None,0,75,75,35,98.03147920011543,,98.02218090021051,98.03147920011543,99.01468100002967,99.01468100002967,99.03136350004934,99.1317629001569,t,0.11083720019087195,None,904091,001,2025-11-03_08h34.09.768,Tutorial 6,,2025.1.1,60.14527489689131,2025-11-03 08h34.17.161786 +0530,
155,183,283,76,76,0,l,0.027819800190627575,None,0,76,76,76,99.14820270007476,,99.138930400135,99.14820270007476,100.13130830018781,100.13130830018781,100.14804000011645,100.16535890009254,l,0.027819800190627575,None,904091,001,2025-11-03_08h34.09.768,Tutorial 6,,2025.1.1,60.14527489689131,2025-11-03 08h34.17.161786 +0530,
27,36,43,77,77,0,t,0.04681509989313781,None,0,77,77,10,100.18143630004488,,100.1724432001356,100.18143630004488,101.16434400016442,101.16434400016442,101.18112440011464,101.21491910004988,t,0.04681509989313781,None,904091,001,2025-11-03_08h34.09.768,Tutorial 6,,2025.1.1,60.14527489689131,2025-11-03 08h34.17.161786 +0530,
150,209,271,78,78,0,l,0.0765447998419404,None,0,78,78,73,101.23096310021356,,101.22569250012748,101.23096310021356,102.21443680021912,102.21443680021912,102.23099800013006,102.29876550007612,l,0.0765447998419404,None,904091,001,2025-11-03_08h34.09.768,Tutorial 6,,2025.1.1,60.14527489689131,2025-11-03 08h34.17.161786 +0530,
120,175,213,79,79,0,t,0.43774269986897707,None,0,79,79,58,102.31397690018639,,102.306249700021,102.31397690018639,103.31429020012729,103.31429020012729,103.31429020012729,103.76517400005832,t,0.43774269986897707,None,904091,001,2025-11-03_08h34.09.768,Tutorial 6,,2025.1.1,60.14527489689131,2025-11-03 08h34.17.161786 +0530,
103,131,182,80,80,0,t,0.250666500069201,None,0,80,80,49,103.7808407000266,,103.77152860001661,103.7808407000266,104.78060830011964,104.78060830011964,104.78060830011964,105.0479400001932,t,0.250666500069201,None,904091,001,2025-11-03_08h34.09.768,Tutorial 6,,2025.1.1,60.14527489689131,2025-11-03 08h34.17.161786 +0530,
134,214,242,81,81,0,l,0.15013370011001825,None,0,81,81,65,105.06362750008702,,105.05334700015374,105.06362750008702,106.04709660005756,106.04709660005756,106.06369620002806,106.19802830019034,l,0.15013370011001825,None,904091,001,2025-11-03_08h34.09.768,Tutorial 6,,2025.1.1,60.14527489689131,2025-11-03 08h34.17.161786 +0530,
101,164,176,82,82,0,l,0.09173540002666414,None,0,82,82,48,106.2136834000703,,106.20525780017488,106.2136834000703,107.21347350021824,107.21347350021824,107.21347350021824,107.31379870022647,l,0.09173540002666414,None,904091,001,2025-11-03_08h34.09.768,Tutorial 6,,2025.1.1,60.14527489689131,2025-11-03 08h34.17.161786 +0530,
56,83,92,83,83,0,t,0.25115839997306466,None,0,83,83,25,107.32945220009424,,107.32159260008484,107.32945220009424,108.3135005000513,108.3135005000513,108.33007030002773,108.57981940009631,t,0.25115839997306466,None,904091,001,2025-11-03_08h34.09.768,Tutorial 6,,2025.1.1,60.14527489689131,2025-11-03 08h34.17.161786 +0530,
188,237,342,84,84,0,t,0.09099390008486807,None,0,84,84,93,108.59633200010285,,108.58303080010228,108.59633200010285,109.57988710002974,109.57988710002974,109.59660230018198,109.68065890017897,t,0.09099390008486807,None,904091,001,2025-11-03_08h34.09.768,Tutorial 6,,2025.1.1,60.14527489689131,2025-11-03 08h34.17.161786 +0530,
10,16,7,85,85,0,l,0.0910086000803858,None,0,85,85,1,109.6965940000955,,109.68705000006594,109.6965940000955,110.6796195001807,110.6796195001807,110.69641350000165,110.78047920018435,l,0.0910086000803858,None,904091,001,2025-11-03_08h34.09.768,Tutorial 6,,2025.1.1,60.14527489689131,2025-11-03 08h34.17.161786 +0530,
200,251,369,86,86,0,l,0.05951169994659722,None,0,86,86,99,110.79640510003082,,110.78719570022076,110.79640510003082,111.77936040004715,111.77936040004715,111.79612569999881,111.84698060015216,l,0.05951169994659722,None,904091,001,2025-11-03_08h34.09.768,Tutorial 6,,2025.1.1,60.14527489689131,2025-11-03 08h34.17.161786 +0530,
119,183,212,87,87,0,t,0.8337874000426382,None,0,87,87,57,111.86306660016999,,111.85337690007873,111.86306660016999,112.845958000049,112.845958000049,112.86254870006815,113.69638670003042,t,0.8337874000426382,None,904091,001,2025-11-03_08h34.09.768,Tutorial 6,,2025.1.1,60.14527489689131,2025-11-03 08h34.17.161786 +0530,
111,128,198,88,88,0,l,0.15312859998084605,None,0,88,88,53,113.7124793000985,,113.70335930003785,113.7124793000985,114.69543550000526,114.69543550000526,114.71221520006657,114.86352480016649,l,0.15312859998084605,None,904091,001,2025-11-03_08h34.09.768,Tutorial 6,,2025.1.1,60.14527489689131,2025-11-03 08h34.17.161786 +0530,
20,35,26,89,89,0,l,0.0013379999436438084,None,0,89,89,6,114.87895070016384,,114.87057800008915,114.87895070016384,115.87855660007335,115.87855660007335,115.87855660007335,115.89625460002571,l,0.0013379999436438084,None,904091,001,2025-11-03_08h34.09.768,Tutorial 6,,2025.1.1,60.14527489689131,2025-11-03 08h34.17.161786 +0530,
167,219,305,90,90,0,l,0.8232015001121908,None,0,90,90,82,115.91220400016755,,115.90272290003486,115.91220400016755,116.91201520012692,116.91201520012692,116.91201520012692,117.74595920019783,l,0.8232015001121908,None,904091,001,2025-11-03_08h34.09.768,Tutorial 6,,2025.1.1,60.14527489689131,2025-11-03 08h34.17.161786 +0530,
177,227,324,91,91,0,l,0.07392190000973642,None,0,91,91,87,117.76159840007313,,117.75256390008144,117.76159840007313,118.74486860004254,118.74486860004254,118.76178590022027,118.82906190003268,l,0.07392190000973642,None,904091,001,2025-11-03_08h34.09.768,Tutorial 6,,2025.1.1,60.14527489689131,2025-11-03 08h34.17.161786 +0530,
196,271,360,92,92,0,l,0.011032199952751398,None,0,92,92,97,118.84519570018165,,118.83528260001913,118.84519570018165,119.84471410000697,119.84471410000697,119.84471410000697,119.86259650019929,l,0.011032199952751398,None,904091,001,2025-11-03_08h34.09.768,Tutorial 6,,2025.1.1,60.14527489689131,2025-11-03 08h34.17.161786 +0530,
74,88,127,93,93,0,t,1.1050906998571008,None,0,93,93,34,119.87805670010857,,119.8681728001684,119.87805670010857,120.87798520014621,120.87798520014621,120.87798520014621,121.99548310018145,t,1.1050906998571008,None,904091,001,2025-11-03_08h34.09.768,Tutorial 6,,2025.1.1,60.14527489689131,2025-11-03 08h34.17.161786 +0530,
37,51,57,94,94,0,l,0.056532599963247776,None,0,94,94,15,122.01129660010338,,122.00228960020468,122.01129660010338,123.0108663002029,123.0108663002029,123.0108663002029,123.07853270019405,l,0.056532599963247776,None,904091,001,2025-11-03_08h34.09.768,Tutorial 6,,2025.1.1,60.14527489689131,2025-11-03 08h34.17.161786 +0530,
124,188,225,95,95,0,l,0.7294155999552459,None,0,95,95,60,123.09422430000268,,123.0845958001446,123.09422430000268,124.07764710020274,124.07764710020274,124.09435710008256,124.8115086001344,l,0.7294155999552459,None,904091,001,2025-11-03_08h34.09.768,Tutorial 6,,2025.1.1,60.14527489689131,2025-11-03 08h34.17.161786 +0530,
95,137,168,96,96,0,l,0.7177059000823647,None,0,96,96,45,124.82734030019492,,124.81851060013287,124.82734030019492,125.81078260019422,125.81078260019422,125.82731590000913,126.54467010009103,l,0.7177059000823647,None,904091,001,2025-11-03_08h34.09.768,Tutorial 6,,2025.1.1,60.14527489689131,2025-11-03 08h34.17.161786 +0530,
186,214,340,97,97,0,t,0.6668430999852717,None,0,97,97,92,126.5605782000348,,126.5508923002053,126.5605782000348,127.56049160007387,127.56049160007387,127.56049160007387,128.243826800026,t,0.6668430999852717,None,904091,001,2025-11-03_08h34.09.768,Tutorial 6,,2025.1.1,60.14527489689131,2025-11-03 08h34.17.161786 +0530,
64,83,111,98,98,0,t,0.13346500019542873,None,0,98,98,29,128.25992720015347,,128.25082870014012,128.25992720015347,129.24343620007858,129.24343620007858,129.2603222001344,129.39423620002344,t,0.13346500019542873,None,904091,001,2025-11-03_08h34.09.768,Tutorial 6,,2025.1.1,60.14527489689131,2025-11-03 08h34.17.161786 +0530,
72,101,123,99,99,0,t,0.10986589989624918,None,0,99,99,33,129.4102010000497,,129.40049250004813,129.4102010000497,130.4099320000969,130.4099320000969,130.4099320000969,130.52731000003405,t,0.10986589989624918,None,904091,001,2025-11-03_08h34.09.768,Tutorial 6,,2025.1.1,60.14527489689131,2025-11-03 08h34.17.161786 +0530,
